!FRM4SOC_CP
!TEMPDATA
# thermal characterization results

# comments start with # (ignored by the processor)
# no empty lines between the parameter signatures in [] and the parameter values
# parameters are case insensitive
# parameters can be inserted in any order, except the first two signatures
# columns are tab- or space-delimited

[VERSION]
0.1

[CALDATE]
2023-04-06 09:02:55

[CALLAB]
Tartu Observatory

[USER]
Riho Vendt

[DEVICE]
CLASS_HYPEROCR_IRRADIANCE

[REFERENCE_TEMP]
20.0

#px	wl (nm)	cT (1/deg)	ucT (1/deg, k=2)
[CALDATA]
0	320.00	2.362E-003	4.572E-003
1	322.50	2.225E-003	4.510E-003
2	325.00	1.525E-003	4.629E-003
3	327.50	1.182E-003	4.296E-003
4	330.00	1.321E-003	3.039E-003
5	332.50	9.923E-004	2.759E-003
6	335.00	1.323E-003	2.461E-003
7	337.50	1.359E-003	2.163E-003
8	340.00	9.551E-004	2.172E-003
9	342.50	1.090E-003	1.290E-003
10	345.00	1.100E-003	8.386E-004
11	347.50	1.144E-003	8.247E-004
12	350.00	1.185E-003	7.901E-004
13	352.50	1.186E-003	5.187E-004
14	355.00	1.120E-003	3.367E-004
15	357.50	1.091E-003	3.514E-004
16	360.00	1.112E-003	5.588E-004
17	362.50	1.136E-003	6.840E-004
18	365.00	1.073E-003	7.647E-004
19	367.50	1.043E-003	7.685E-004
20	370.00	1.045E-003	6.967E-004
21	372.50	9.972E-004	6.517E-004
22	375.00	9.325E-004	5.542E-004
23	377.50	8.746E-004	5.791E-004
24	380.00	8.312E-004	6.537E-004
25	382.50	8.192E-004	6.415E-004
26	385.00	8.143E-004	5.887E-004
27	387.50	8.143E-004	5.633E-004
28	390.00	8.227E-004	5.558E-004
29	392.50	8.475E-004	5.422E-004
30	395.00	8.378E-004	4.984E-004
31	397.50	8.312E-004	4.813E-004
32	400.00	8.297E-004	4.680E-004
33	402.50	8.254E-004	4.683E-004
34	405.00	8.293E-004	4.724E-004
35	407.50	8.414E-004	4.666E-004
36	410.00	8.588E-004	4.685E-004
37	412.50	8.729E-004	4.870E-004
38	415.00	8.747E-004	4.601E-004
39	417.50	8.817E-004	4.595E-004
40	420.00	8.882E-004	4.626E-004
41	422.50	9.013E-004	4.388E-004
42	425.00	9.161E-004	4.705E-004
43	427.50	9.303E-004	4.745E-004
44	430.00	9.473E-004	4.683E-004
45	432.50	9.558E-004	4.778E-004
46	435.00	9.589E-004	4.753E-004
47	437.50	9.529E-004	4.702E-004
48	440.00	9.438E-004	4.695E-004
49	442.50	9.450E-004	4.616E-004
50	445.00	9.562E-004	4.715E-004
51	447.50	9.690E-004	4.636E-004
52	450.00	9.885E-004	4.501E-004
53	452.50	1.013E-003	4.427E-004
54	455.00	1.047E-003	4.572E-004
55	457.50	1.071E-003	4.506E-004
56	460.00	1.089E-003	4.465E-004
57	462.50	1.102E-003	4.570E-004
58	465.00	1.106E-003	4.398E-004
59	467.50	1.112E-003	4.343E-004
60	470.00	1.119E-003	4.433E-004
61	472.50	1.125E-003	4.660E-004
62	475.00	1.111E-003	4.571E-004
63	477.50	1.107E-003	4.472E-004
64	480.00	1.118E-003	4.416E-004
65	482.50	1.142E-003	4.451E-004
66	485.00	1.185E-003	4.360E-004
67	487.50	1.232E-003	4.317E-004
68	490.00	1.276E-003	4.283E-004
69	492.50	1.319E-003	4.083E-004
70	495.00	1.357E-003	4.089E-004
71	497.50	1.386E-003	4.168E-004
72	500.00	1.410E-003	4.218E-004
73	502.50	1.437E-003	4.152E-004
74	505.00	1.464E-003	4.129E-004
75	507.50	1.485E-003	4.132E-004
76	510.00	1.501E-003	4.227E-004
77	512.50	1.516E-003	4.248E-004
78	515.00	1.531E-003	4.367E-004
79	517.50	1.542E-003	4.448E-004
80	520.00	1.550E-003	4.534E-004
81	522.50	1.560E-003	4.601E-004
82	525.00	1.570E-003	4.605E-004
83	527.50	1.582E-003	4.629E-004
84	530.00	1.596E-003	4.635E-004
85	532.50	1.611E-003	4.589E-004
86	535.00	1.622E-003	4.517E-004
87	537.50	1.640E-003	4.627E-004
88	540.00	1.660E-003	4.668E-004
89	542.50	1.682E-003	4.507E-004
90	545.00	1.706E-003	4.447E-004
91	547.50	1.723E-003	4.350E-004
92	550.00	1.739E-003	4.394E-004
93	552.50	1.759E-003	4.429E-004
94	555.00	1.767E-003	4.483E-004
95	557.50	1.780E-003	4.493E-004
96	560.00	1.794E-003	4.389E-004
97	562.50	1.804E-003	4.388E-004
98	565.00	1.820E-003	4.275E-004
99	567.50	1.838E-003	4.140E-004
100	570.00	1.861E-003	4.073E-004
101	572.50	1.890E-003	4.144E-004
102	575.00	1.908E-003	4.073E-004
103	577.50	1.924E-003	4.095E-004
104	580.00	1.933E-003	4.105E-004
105	582.50	1.938E-003	4.056E-004
106	585.00	1.947E-003	4.234E-004
107	587.50	1.957E-003	4.327E-004
108	590.00	1.964E-003	4.275E-004
109	592.50	1.969E-003	4.067E-004
110	595.00	1.977E-003	4.113E-004
111	597.50	1.987E-003	4.236E-004
112	600.00	1.995E-003	4.368E-004
113	602.50	2.004E-003	4.356E-004
114	605.00	2.010E-003	4.648E-004
115	607.50	2.009E-003	4.649E-004
116	610.00	2.007E-003	4.573E-004
117	612.50	2.005E-003	4.641E-004
118	615.00	2.008E-003	4.584E-004
119	617.50	2.013E-003	4.690E-004
120	620.00	2.016E-003	4.826E-004
121	622.50	2.027E-003	4.718E-004
122	625.00	2.049E-003	4.785E-004
123	627.50	2.073E-003	4.640E-004
124	630.00	2.100E-003	4.496E-004
125	632.50	2.134E-003	4.501E-004
126	635.00	2.174E-003	4.425E-004
127	637.50	2.215E-003	4.578E-004
128	640.00	2.252E-003	4.887E-004
129	642.50	2.288E-003	4.877E-004
130	645.00	2.312E-003	5.011E-004
131	647.50	2.334E-003	5.087E-004
132	650.00	2.356E-003	5.068E-004
133	652.50	2.384E-003	5.225E-004
134	655.00	2.405E-003	5.410E-004
135	657.50	2.424E-003	5.472E-004
136	660.00	2.438E-003	5.343E-004
137	662.50	2.449E-003	5.362E-004
138	665.00	2.470E-003	5.278E-004
139	667.50	2.493E-003	5.259E-004
140	670.00	2.512E-003	5.271E-004
141	672.50	2.534E-003	5.164E-004
142	675.00	2.553E-003	5.099E-004
143	677.50	2.570E-003	5.014E-004
144	680.00	2.587E-003	4.932E-004
145	682.50	2.600E-003	4.909E-004
146	685.00	2.610E-003	5.050E-004
147	687.50	2.624E-003	5.124E-004
148	690.00	2.644E-003	5.070E-004
149	692.50	2.659E-003	5.130E-004
150	695.00	2.678E-003	5.199E-004
151	697.50	2.700E-003	5.147E-004
152	700.00	2.723E-003	4.919E-004
153	702.50	2.750E-003	4.811E-004
154	705.00	2.780E-003	4.734E-004
155	707.50	2.807E-003	4.605E-004
156	710.00	2.833E-003	4.450E-004
157	712.50	2.860E-003	4.352E-004
158	715.00	2.879E-003	4.240E-004
159	717.50	2.895E-003	4.214E-004
160	720.00	2.906E-003	4.187E-004
161	722.50	2.914E-003	4.032E-004
162	725.00	2.913E-003	4.081E-004
163	727.50	2.909E-003	4.076E-004
164	730.00	2.902E-003	3.982E-004
165	732.50	2.889E-003	4.049E-004
166	735.00	2.882E-003	4.177E-004
167	737.50	2.893E-003	4.135E-004
168	740.00	2.919E-003	3.890E-004
169	742.50	2.955E-003	3.933E-004
170	745.00	3.005E-003	3.889E-004
171	747.50	3.060E-003	3.885E-004
172	750.00	3.117E-003	3.965E-004
173	752.50	3.181E-003	4.034E-004
174	755.00	3.250E-003	4.041E-004
175	757.50	3.316E-003	3.994E-004
176	760.00	3.383E-003	3.987E-004
177	762.50	3.448E-003	4.063E-004
178	765.00	3.520E-003	4.272E-004
179	767.50	3.592E-003	4.511E-004
180	770.00	3.661E-003	4.725E-004
181	772.50	3.731E-003	4.783E-004
182	775.00	3.802E-003	4.896E-004
183	777.50	3.869E-003	4.877E-004
184	780.00	3.930E-003	4.835E-004
185	782.50	3.988E-003	5.026E-004
186	785.00	4.047E-003	5.196E-004
187	787.50	4.105E-003	5.277E-004
188	790.00	4.159E-003	5.275E-004
189	792.50	4.204E-003	5.264E-004
190	795.00	4.255E-003	5.376E-004
191	797.50	4.307E-003	5.388E-004
192	800.00	4.355E-003	5.321E-004
193	802.50	4.391E-003	5.311E-004
194	805.00	4.431E-003	5.466E-004
195	807.50	4.466E-003	5.535E-004
196	810.00	4.497E-003	5.485E-004
197	812.50	4.525E-003	5.266E-004
198	815.00	4.542E-003	5.434E-004
199	817.50	4.556E-003	5.527E-004
200	820.00	4.564E-003	5.465E-004
201	822.50	4.566E-003	5.314E-004
202	825.00	4.552E-003	5.571E-004
203	827.50	4.525E-003	5.901E-004
204	830.00	4.492E-003	6.197E-004
205	832.50	4.465E-003	6.259E-004
206	835.00	4.449E-003	6.445E-004
207	837.50	4.457E-003	6.584E-004
208	840.00	4.485E-003	6.611E-004
209	842.50	4.525E-003	6.487E-004
210	845.00	4.557E-003	6.466E-004
211	847.50	4.609E-003	6.253E-004
212	850.00	4.664E-003	5.988E-004
213	852.50	4.709E-003	5.831E-004
214	855.00	4.761E-003	5.695E-004
215	857.50	4.825E-003	5.573E-004
216	860.00	4.891E-003	5.446E-004
217	862.50	4.949E-003	5.242E-004
218	865.00	5.001E-003	5.377E-004
219	867.50	5.059E-003	5.382E-004
220	870.00	5.118E-003	5.316E-004
221	872.50	5.172E-003	5.198E-004
222	875.00	5.226E-003	5.323E-004
223	877.50	5.280E-003	5.301E-004
224	880.00	5.337E-003	5.352E-004
225	882.50	5.392E-003	5.501E-004
226	885.00	5.436E-003	5.351E-004
227	887.50	5.485E-003	5.554E-004
228	890.00	5.536E-003	5.753E-004
229	892.50	5.586E-003	5.840E-004
230	895.00	5.633E-003	5.977E-004
231	897.50	5.674E-003	5.556E-004
232	900.00	5.706E-003	5.560E-004
233	902.50	5.371E-003	1.590E-003
234	905.00	5.616E-003	7.267E-004
235	907.50	5.629E-003	7.309E-004
236	910.00	5.345E-003	1.037E-003
237	912.50	5.352E-003	1.065E-003
238	915.00	5.340E-003	1.122E-003
239	917.50	5.300E-003	1.203E-003
240	920.00	5.264E-003	1.279E-003
241	922.50	5.176E-003	1.409E-003
242	925.00	5.049E-003	1.560E-003
243	927.50	4.892E-003	1.735E-003
244	930.00	4.717E-003	1.927E-003
245	932.50	4.514E-003	2.144E-003
246	935.00	4.303E-003	2.377E-003
247	937.50	4.055E-003	2.603E-003
248	940.00	3.850E-003	2.870E-003
249	942.50	3.589E-003	3.179E-003
250	945.00	3.329E-003	3.518E-003
251	947.50	3.049E-003	3.924E-003
252	950.00	2.677E-003	4.339E-003
253	952.50	2.260E-003	4.836E-003
254	955.00	1.875E-003	5.299E-003
255	957.50	1.513E-003	5.696E-003
[END_OF_CALDATA]
